"rt","url","trial_type","trial_index","time_elapsed","internal_node_id","subject","list","trial","responses","stimulus","key_press"
"5810","static/html/consent.html","html","0","5868","0.0-0.0","23590","1a","11,0,13,8,10,1,3,9,12,4,6,7,2,5","","",""
"14759","","survey-text","1","21634","0.0-1.0","23590","1a","11,0,13,8,10,1,3,9,12,4,6,7,2,5","{""Q0"":""woman"",""Q1"":""24"",""Q2"":""Polish"",""Q3"":""English"",""Q4"":""Poland""}","",""
"16730","static/html/instructions.html","html","2","39393","0.0-2.0","23590","1a","11,0,13,8,10,1,3,9,12,4,6,7,2,5","","",""
"-1","","single-stim","3","40897","0.0-3.0","23590","1a","11,0,13,8,10,1,3,9,12,4,6,7,2,5","","<div id='container-fixation' style='display:flex; align-items:center; justify-content:center; height:100vh'><strong>+</strong></div>","-1"
"-1000","","single-audio","4","43203","0.0-4.0","23590","1a","11,0,13,8,10,1,3,9,12,4,6,7,2,5","","static/js/jspsych/questions/17P.mp3","-1"
"-1","","single-stim","5","44708","0.0-5.0","23590","1a","11,0,13,8,10,1,3,9,12,4,6,7,2,5","","<div id='container-red'> </div>","-1"
"-1000","","single-audio","6","46259","0.0-6.0","23590","1a","11,0,13,8,10,1,3,9,12,4,6,7,2,5","","static/js/jspsych/answers/New York.mp3","-1"
"5317","","survey-text","7","52579","0.0-7.0","23590","1a","11,0,13,8,10,1,3,9,12,4,6,7,2,5","{""Q0"":""New York""}","",""
"-1","","single-stim","8","54082","0.0-8.0","23590","1a","11,0,13,8,10,1,3,9,12,4,6,7,2,5","","<div id='container-fixation' style='display:flex; align-items:center; justify-content:center; height:100vh'><strong>+</strong></div>","-1"
"-1000","","single-audio","9","59464","0.0-9.0","23590","1a","11,0,13,8,10,1,3,9,12,4,6,7,2,5","","static/js/jspsych/questions/9P.mp3","-1"
"-1","","single-stim","10","60969","0.0-10.0","23590","1a","11,0,13,8,10,1,3,9,12,4,6,7,2,5","","<div id='container-red'> </div>","-1"
"-1000","","single-audio","11","63016","0.0-11.0","23590","1a","11,0,13,8,10,1,3,9,12,4,6,7,2,5","","static/js/jspsych/answers/Ham and pineapple.mp3","-1"
"11218","","survey-text","12","75239","0.0-12.0","23590","1a","11,0,13,8,10,1,3,9,12,4,6,7,2,5","{""Q0"":""ham and pineapple""}","",""
"-1","","single-stim","13","76744","0.0-13.0","23590","1a","11,0,13,8,10,1,3,9,12,4,6,7,2,5","","<div id='container-fixation' style='display:flex; align-items:center; justify-content:center; height:100vh'><strong>+</strong></div>","-1"
"-1000","","single-audio","14","79379","0.0-14.0","23590","1a","11,0,13,8,10,1,3,9,12,4,6,7,2,5","","static/js/jspsych/questions/8P.mp3","-1"
"-1","","single-stim","15","80882","0.0-15.0","23590","1a","11,0,13,8,10,1,3,9,12,4,6,7,2,5","","<div id='container-red'> </div>","-1"
"-1000","","single-audio","16","82792","0.0-16.0","23590","1a","11,0,13,8,10,1,3,9,12,4,6,7,2,5","","static/js/jspsych/answers/Donald Trump.mp3","-1"
"4905","","survey-text","17","88700","0.0-17.0","23590","1a","11,0,13,8,10,1,3,9,12,4,6,7,2,5","{""Q0"":""Donald Trump""}","",""
"-1","","single-stim","18","90204","0.0-18.0","23590","1a","11,0,13,8,10,1,3,9,12,4,6,7,2,5","","<div id='container-fixation' style='display:flex; align-items:center; justify-content:center; height:100vh'><strong>+</strong></div>","-1"
"-1000","","single-audio","19","93464","0.0-19.0","23590","1a","11,0,13,8,10,1,3,9,12,4,6,7,2,5","","static/js/jspsych/questions/13P.mp3","-1"
"-1","","single-stim","20","94967","0.0-20.0","23590","1a","11,0,13,8,10,1,3,9,12,4,6,7,2,5","","<div id='container-red'> </div>","-1"
"-1000","","single-audio","21","96851","0.0-21.0","23590","1a","11,0,13,8,10,1,3,9,12,4,6,7,2,5","","static/js/jspsych/answers/James bond.mp3","-1"
"2971","","survey-text","22","100825","0.0-22.0","23590","1a","11,0,13,8,10,1,3,9,12,4,6,7,2,5","{""Q0"":""James Bond""}","",""
"-1","","single-stim","23","102329","0.0-23.0","23590","1a","11,0,13,8,10,1,3,9,12,4,6,7,2,5","","<div id='container-fixation' style='display:flex; align-items:center; justify-content:center; height:100vh'><strong>+</strong></div>","-1"
"-1000","","single-audio","24","103971","0.0-24.0","23590","1a","11,0,13,8,10,1,3,9,12,4,6,7,2,5","","static/js/jspsych/questions/23P.mp3","-1"
"-1","","single-stim","25","105475","0.0-25.0","23590","1a","11,0,13,8,10,1,3,9,12,4,6,7,2,5","","<div id='container-red'> </div>","-1"
"-1000","","single-audio","26","107417","0.0-26.0","23590","1a","11,0,13,8,10,1,3,9,12,4,6,7,2,5","","static/js/jspsych/answers/North Pole.mp3","-1"
"3340","","survey-text","27","111759","0.0-27.0","23590","1a","11,0,13,8,10,1,3,9,12,4,6,7,2,5","{""Q0"":""North Pole""}","",""
"-1","","single-stim","28","113263","0.0-28.0","23590","1a","11,0,13,8,10,1,3,9,12,4,6,7,2,5","","<div id='container-fixation' style='display:flex; align-items:center; justify-content:center; height:100vh'><strong>+</strong></div>","-1"
"-1000","","single-audio","29","115091","0.0-29.0","23590","1a","11,0,13,8,10,1,3,9,12,4,6,7,2,5","","static/js/jspsych/questions/12P.mp3","-1"
"-1","","single-stim","30","116595","0.0-30.0","23590","1a","11,0,13,8,10,1,3,9,12,4,6,7,2,5","","<div id='container-red'> </div>","-1"
"-1000","","single-audio","31","118873","0.0-31.0","23590","1a","11,0,13,8,10,1,3,9,12,4,6,7,2,5","","static/js/jspsych/answers/It hit an iceberg.mp3","-1"
"5417","","survey-text","32","125293","0.0-32.0","23590","1a","11,0,13,8,10,1,3,9,12,4,6,7,2,5","{""Q0"":""It hit an iceberg""}","",""
"-1","","single-stim","33","126797","0.0-33.0","23590","1a","11,0,13,8,10,1,3,9,12,4,6,7,2,5","","<div id='container-fixation' style='display:flex; align-items:center; justify-content:center; height:100vh'><strong>+</strong></div>","-1"
"-1000","","single-audio","34","129566","0.0-34.0","23590","1a","11,0,13,8,10,1,3,9,12,4,6,7,2,5","","static/js/jspsych/questions/15P.mp3","-1"
"-1","","single-stim","35","131071","0.0-35.0","23590","1a","11,0,13,8,10,1,3,9,12,4,6,7,2,5","","<div id='container-red'> </div>","-1"
"-1000","","single-audio","36","133406","0.0-36.0","23590","1a","11,0,13,8,10,1,3,9,12,4,6,7,2,5","","static/js/jspsych/answers/Molly and Arthur.mp3","-1"
"4404","","survey-text","37","138812","0.0-37.0","23590","1a","11,0,13,8,10,1,3,9,12,4,6,7,2,5","{""Q0"":""Lorie and Hafa""}","",""
"-1","","single-stim","38","140315","0.0-38.0","23590","1a","11,0,13,8,10,1,3,9,12,4,6,7,2,5","","<div id='container-fixation' style='display:flex; align-items:center; justify-content:center; height:100vh'><strong>+</strong></div>","-1"
"-1000","","single-audio","39","142430","0.0-39.0","23590","1a","11,0,13,8,10,1,3,9,12,4,6,7,2,5","","static/js/jspsych/questions/22P.mp3","-1"
"-1","","single-stim","40","143935","0.0-40.0","23590","1a","11,0,13,8,10,1,3,9,12,4,6,7,2,5","","<div id='container-red'> </div>","-1"
"-1000","","single-audio","41","145955","0.0-41.0","23590","1a","11,0,13,8,10,1,3,9,12,4,6,7,2,5","","static/js/jspsych/answers/The Eiffel Tower.mp3","-1"
"4092","","survey-text","42","151050","0.0-42.0","23590","1a","11,0,13,8,10,1,3,9,12,4,6,7,2,5","{""Q0"":""Eiffel tower""}","",""
"-1","","single-stim","43","152555","0.0-43.0","23590","1a","11,0,13,8,10,1,3,9,12,4,6,7,2,5","","<div id='container-fixation' style='display:flex; align-items:center; justify-content:center; height:100vh'><strong>+</strong></div>","-1"
"-1000","","single-audio","44","155193","0.0-44.0","23590","1a","11,0,13,8,10,1,3,9,12,4,6,7,2,5","","static/js/jspsych/questions/19P.mp3","-1"
"-1","","single-stim","45","156696","0.0-45.0","23590","1a","11,0,13,8,10,1,3,9,12,4,6,7,2,5","","<div id='container-red'> </div>","-1"
"-1000","","single-audio","46","158606","0.0-46.0","23590","1a","11,0,13,8,10,1,3,9,12,4,6,7,2,5","","static/js/jspsych/answers/Snow White.mp3","-1"
"4171","","survey-text","47","163780","0.0-47.0","23590","1a","11,0,13,8,10,1,3,9,12,4,6,7,2,5","{""Q0"":""Snow white""}","",""
"-1","","single-stim","48","165284","0.0-48.0","23590","1a","11,0,13,8,10,1,3,9,12,4,6,7,2,5","","<div id='container-fixation' style='display:flex; align-items:center; justify-content:center; height:100vh'><strong>+</strong></div>","-1"
"-1000","","single-audio","49","166878","0.0-49.0","23590","1a","11,0,13,8,10,1,3,9,12,4,6,7,2,5","","static/js/jspsych/questions/4P.mp3","-1"
"-1","","single-stim","50","168382","0.0-50.0","23590","1a","11,0,13,8,10,1,3,9,12,4,6,7,2,5","","<div id='container-red'> </div>","-1"
"-1000","","single-audio","51","170371","0.0-51.0","23590","1a","11,0,13,8,10,1,3,9,12,4,6,7,2,5","","static/js/jspsych/answers/Black and white.mp3","-1"
"3718","","survey-text","52","175093","0.0-52.0","23590","1a","11,0,13,8,10,1,3,9,12,4,6,7,2,5","{""Q0"":""black and white""}","",""
"-1","","single-stim","53","176597","0.0-53.0","23590","1a","11,0,13,8,10,1,3,9,12,4,6,7,2,5","","<div id='container-fixation' style='display:flex; align-items:center; justify-content:center; height:100vh'><strong>+</strong></div>","-1"
"-1000","","single-audio","54","179182","0.0-54.0","23590","1a","11,0,13,8,10,1,3,9,12,4,6,7,2,5","","static/js/jspsych/questions/10P.mp3","-1"
"-1","","single-stim","55","180686","0.0-55.0","23590","1a","11,0,13,8,10,1,3,9,12,4,6,7,2,5","","<div id='container-red'> </div>","-1"
"-1000","","single-audio","56","182574","0.0-56.0","23590","1a","11,0,13,8,10,1,3,9,12,4,6,7,2,5","","static/js/jspsych/answers/Harry Potter.mp3","-1"
"5207","","survey-text","57","188783","0.0-57.0","23590","1a","11,0,13,8,10,1,3,9,12,4,6,7,2,5","{""Q0"":""Harry Potter""}","",""
"-1","","single-stim","58","190287","0.0-58.0","23590","1a","11,0,13,8,10,1,3,9,12,4,6,7,2,5","","<div id='container-fixation' style='display:flex; align-items:center; justify-content:center; height:100vh'><strong>+</strong></div>","-1"
"-1000","","single-audio","59","193107","0.0-59.0","23590","1a","11,0,13,8,10,1,3,9,12,4,6,7,2,5","","static/js/jspsych/questions/31P.mp3","-1"
"-1","","single-stim","60","194613","0.0-60.0","23590","1a","11,0,13,8,10,1,3,9,12,4,6,7,2,5","","<div id='container-red'> </div>","-1"
"-1000","","single-audio","61","196345","0.0-61.0","23590","1a","11,0,13,8,10,1,3,9,12,4,6,7,2,5","","static/js/jspsych/answers/Robin hood.mp3","-1"
"4873","","survey-text","62","202221","0.0-62.0","23590","1a","11,0,13,8,10,1,3,9,12,4,6,7,2,5","{""Q0"":""Robin Hood""}","",""
"-1","","single-stim","63","203724","0.0-63.0","23590","1a","11,0,13,8,10,1,3,9,12,4,6,7,2,5","","<div id='container-fixation' style='display:flex; align-items:center; justify-content:center; height:100vh'><strong>+</strong></div>","-1"
"-1000","","single-audio","64","206436","0.0-64.0","23590","1a","11,0,13,8,10,1,3,9,12,4,6,7,2,5","","static/js/jspsych/questions/30P.mp3","-1"
"-1","","single-stim","65","207941","0.0-65.0","23590","1a","11,0,13,8,10,1,3,9,12,4,6,7,2,5","","<div id='container-red'> </div>","-1"
"-1000","","single-audio","66","209753","0.0-66.0","23590","1a","11,0,13,8,10,1,3,9,12,4,6,7,2,5","","static/js/jspsych/answers/Twice a day.mp3","-1"
"3540","","survey-text","67","214296","0.0-67.0","23590","1a","11,0,13,8,10,1,3,9,12,4,6,7,2,5","{""Q0"":""twice a day""}","",""
"-1","","single-stim","68","215800","0.0-68.0","23590","1a","11,0,13,8,10,1,3,9,12,4,6,7,2,5","","<div id='container-fixation' style='display:flex; align-items:center; justify-content:center; height:100vh'><strong>+</strong></div>","-1"
"-1000","","single-audio","69","218148","0.0-69.0","23590","1a","11,0,13,8,10,1,3,9,12,4,6,7,2,5","","static/js/jspsych/questions/1P.mp3","-1"
"-1","","single-stim","70","219652","0.0-70.0","23590","1a","11,0,13,8,10,1,3,9,12,4,6,7,2,5","","<div id='container-red'> </div>","-1"
"-1000","","single-audio","71","221700","0.0-71.0","23590","1a","11,0,13,8,10,1,3,9,12,4,6,7,2,5","","static/js/jspsych/answers/A knife and fork.mp3","-1"
"7059","","survey-text","72","229763","0.0-72.0","23590","1a","11,0,13,8,10,1,3,9,12,4,6,7,2,5","{""Q0"":""knife and fork""}","",""
"34400","","survey-text","73","265167","0.0-73.0","23590","1a","11,0,13,8,10,1,3,9,12,4,6,7,2,5","{""Q0"":""Milka""}","",""
